Folder: MOCVD-raman-carboncontaminationmaps/Raman Data

Note: README.md
# MOCVD-Carbon-Contamination-Raman-Maps

Python processing of Raman data from a Rernishaw inVia Raman Microscope.

Used to extract and plot both single scans and map scans.

Scans were used to analyse the coverage of WS2 films after an MOCVD process with different doses of DMS. 


Lorentz curves fitted to each peak to extract information on position and amplitude.

This is used to plot 2D heatmaps of selected peak intensities.

File: dms0_05mbar_singlescan.txt
#Wave		#Intensity
1907.73	787.279
1901.54	820.71
1895.35	803.879
1889.15	790.301
1882.95	826.703
1876.74	801.857
1870.53	826.926
1864.31	827.84
1858.09	849.632
1851.86	877.806
1845.62	836.985
1839.38	871.53
1833.13	848.39
1826.88	844.48
1820.63	826.195
1814.37	823.906
1808.1	893.414
1801.83	863.973
1795.55	828.21
1789.27	868.893
1782.99	825.234
1776.69	822.955
1770.4	896.873
1764.09	897.708
1757.79	877.94
1751.47	867.705
1745.15	930.261
1738.83	855.187
1732.5	900.274
1726.16	869.535
1719.82	884.574
1713.48	901.163
1707.13	916.149
1700.77	885.497
1694.41	905.184
1688.04	913.845
1681.67	897.39
1675.29	924.852
1668.91	897.449
1662.52	917.039
1656.13	866.233
1649.73	938.932
1643.33	900.679
1636.92	929.554
1630.5	980.197
1624.08	962.244
1617.66	962.989
1611.22	954.405
1604.79	997.086
1598.35	972.968
1591.9	979.899
1585.45	969.776
1578.99	1003.01
1572.52	961.95
1566.05	950.319
1559.58	1003.55
1553.1	968.764
1546.61	991.062
1540.12	964.041
1533.62	961.684
1527.12	988.54
1520.61	956.978
1514.1	1019.09
1507.58	1033.56
1501.05	1008.16
1494.53	984.339
1487.99	992.676
1481.45	1028.51
1474.9	1001.67
1468.35	1009.97
1461.79	1013.68
1455.23	1056.98
1448.66	1027.16
1442.08	1006.51
1435.5	1011.72
1428.91	1070.05
1422.32	993.303
1415.72	1027.3
1409.12	1044.58
1402.51	1043.68
1395.9	1048.82
1389.28	1047.92
1382.65	1051.54
1376.02	1068.72
1369.38	1061.77
1362.74	1112.01
1356.09	1058.42
1349.43	1054.5
1342.77	1074.6
1336.11	1079.66
1329.43	1048.76
1322.76	1089.76
1316.07	1127.69
1309.38	1090.85
1302.69	1103.33
1295.98	1129.22
1289.28	1062.65
1282.56	1097.46
1275.85	1135.18
1269.12	1098.51
1262.39	1116.85
1255.65	1092.12
1248.91	1150.47
1242.16	1115.38
1235.4	1092.2
1228.64	1060.19
1221.88	1115.39
1215.11	1104.07
1208.33	1073.6
1201.54	1116.85
1194.75	1162.97
1187.96	1086.92
1181.15	1131.51
1174.34	1079.12
1167.53	1122.17
1160.71	1091.85
1153.88	1112.84
1147.05	1103.07
1140.21	1148.86
1133.36	1136.15
1126.51	1135.13
1119.65	1150.15
1112.79	1138.92
1105.92	1136.45
1099.04	1179.04
1092.16	1164.91
1085.27	1158.05
1078.38	1113.51
1071.48	1135.69
1064.57	1124.53
1057.66	1211.72
1050.74	1171.62
1043.81	1219.63
1036.88	1173.82
1029.94	1237.59
1022.99	1204.8
1016.04	1193.64
1009.09	1205.48
1002.12	1237.4
995.152	1201.86
988.176	1182.13
981.191	1218.28
974.203	1211.44
967.207	1268.92
960.205	1263.48
953.197	1205.27
946.182	1328.14
939.16	1248.62
932.133	1305.79
925.098	1264.8
918.059	1345.99
911.01	1307.87
903.957	1272.65
896.896	1342.28
889.83	1288.7
882.756	1297.4
875.678	1355.51
868.59	1340.15
861.498	1372.74
854.398	1343.3
847.293	1360.35
840.18	1373.14
833.061	1370.47
825.936	1360.78
818.803	1391.75
811.664	1365.25
804.518	1417.14
797.365	1383.68
790.207	1463.38
783.041	1422.96
775.869	1421.63
768.689	1441.19
761.504	1434.28
754.311	1455.18
747.111	1442.71
739.906	1455.24
732.693	1520.4
725.475	1491.29
718.248	1463.61
711.016	1481.59
703.775	1494.01
696.529	1476.05
689.275	1496.72
682.016	1491.18
674.748	1520.05
667.475	1574.97
660.193	1583.1
652.906	1567.9
645.611	1615.76
638.311	1573.17
631.002	1630.51
623.688	1639.9
616.365	1593.31
609.037	1612.27
601.701	1601.21
594.359	1629.66
587.01	1639
579.654	1664.64
572.291	1692.93
564.92	1675.06
557.543	1689.75
550.158	1685.45
542.768	1701.44
535.369	1703.89
527.965	1650.98
520.553	1747.88
513.133	1685.6
505.707	1702.86
498.273	1701.25
490.834	1692.93
483.387	1702.07
475.932	1658.89
468.471	1727
461.004	1784.27
453.527	1774.56
446.045	1751.51
438.557	1768.55
431.061	1790.89
423.557	1795.86
416.045	1884.68
408.527	1803.12
401.004	1809.39
393.471	1789.11
385.934	1774.17
378.387	1812.24
370.834	1793.33
363.273	1775.78
355.705	1797.89
348.131	1788.29
340.551	1820.89
332.961	1803.38
325.365	1787.21
317.764	1832.87
310.152	1824.58
302.535	1813.69
294.912	1823.8
287.279	1760.52
279.641	1840.02
271.996	1799.08
264.344	1837.89
256.684	1777.46
249.016	1797.97
241.342	1844.49
233.66	1815.44
225.971	1750.05
218.275	1740.63
210.572	1816.88
202.863	1745.19
195.146	1738.39
187.422	1685.02
179.689	1692.51
171.951	1684.49
164.207	1694.55
160.33	1683.45